File: Data_Starry_2nd_gen_TC_model_Nov_22.csv
,REFERENCE: doi,NAME,FORMULA,Family,PROPERTY: Material Family,IDENTIFIER: sampleid,IDENTIFIER: paperid,IDENTIFIER: figureid,PROPERTY: Temperature (K),PROPERTY: Seebeck coefficient (V/K),PROPERTY: Thermal conductivity (W*m^(-1)*K^(-1)),PROPERTY: Power factor (W*m^(-1)*K^(-2)),PROPERTY: ZT (-),PROPERTY: Electrical conductivity (S*m^(-1)),PROPERTY: sigma_E_0,PROPERTY: log sigma_E_0,PROPERTY: quality_factor,PROPERTY: log quality_factor,inexpensive,non-toxic,n_elements,electron_count,PROPERTY: Seebeck coefficient (muV/K),|S|(muV/K),,L,L*sigma*T,Electronic thermal conductivity,Lattice thermal conductivity,
42318,10.1063/1.36635,Tm,BaTmCo4O7,,,24909,2038,20199,300,0.000135102,0.420722,5.91E-07,0.000304311,37.7204,23.665,1.37411,0.000125367,,1,TRUE,4,0,135.102,135.102,0.312025,1.81202,1.81202E-08,0.000205051,0.420517,
42081,10.1007/s11664-015-4041-9,y=Mn,Ti0.9Mn0.1Co1Sb1,,,12763,10902,10584,300,-8.55E-06,,,0.004688429,1398.16,42.1663,1.62497,,,1,TRUE,4,18,-8.55,8.55,0.928944,2.42894,2.42894E-08,0.0101881,-0.0101881,
41895,10.1016/j.jallcom.2014.08.130,x=0.2,Ce1Sn0.2Se1.8,Toxic,SnSe,12443,1790,10297,300,0.000229607,5.74E-07,2.01E-06,0.001015383,32.6754,63.271,1.8012,-0.913057,,1,TRUE,3,0,229.607,229.607,0.138156,1.63816,1.63816E-08,0.000160582,-0.000160008,
41678,10.1007/s11664-010-1457-0,x=8,Co4Ge1.9Sb8Te2.1,Toxic,,5836,11110,4543,300,1.06E-06,2.57172,,0.121028,24225.4,90.4287,1.95631,8.41E-05,,1,FALSE,4,96,1.06,1.06,0.990904,2.4909,2.4909E-08,0.181029,2.39069,
41527,10.1007/s12034-020-2036-5,SnSe 120MPa,SnSe,Toxic,,28096,24686,22579,300,3.18E-05,1.2205,,0.0317847,1022.32,114.7115,2.05961,0.000210621,,1,TRUE,2,0,31.8,31.8,0.760227,2.26023,2.26023E-08,0.006932057,1.21357,
41367,10.2320/matertrans.mra2007230,0.5,Sr2RuO4,Expensive,,25924,3988,20873,300,2.67E-05,3.9004,,0.000820407,1634.88,154.132,2.18789,8.83E-05,,0,TRUE,3,0,26.7,26.7,0.794397,2.2944,2.2944E-08,0.0112532,3.88914,
41171,10.1063/1.24046,black,Zn4Sb3,Antimonide,Antimonide,16450,287,13950,300,0.000139616,,,0.239938,307.185,203.795,2.30919,,,1,TRUE,2,55,139.616,139.616,0.300116,1.80012,1.80012E-08,0.001658908,-0.001658908,
41032,10.1016/j.jmat.2016.05.001,SnCd0.05Te-9%AgSbSe2,Cd0.05Ag0.09Sn0.91Sb0.09Te0.73Se0.18,Toxic,,3059,18613,2024,300,4.76E-05,3.5792,0.000388381,0.0386282,1455.23,246.126,2.39116,0.000153612,,1,FALSE,6,0,47.6,47.6,0.663421,2.16342,2.16342E-08,0.009444797,3.56975,
40877,10.1016/j.powtec.2015.02.035,Sr0.8Si0.2MnO3,Sr0.8Mn1Si0.2O3,,,25192,4978,20435,300,-9.48E-05,1.14644,6.99E-06,0.004860034,785.598,291.421,2.46452,0.000568553,,1,TRUE,4,0,-94.8,94.8,0.441648,1.94165,1.94165E-08,0.004576064,1.14186,
40742,10.1063/1.28094,x=0.05,Ti1Fe0.05Co0.95Sb1,,,11358,1951,9366,300,4.32E-05,15.1221,7.18E-06,0.003569075,2245.2,343.197,2.53554,5.06E-05,,1,TRUE,4,17,43.2,43.2,0.689069,2.18907,2.18907E-08,0.0147447,15.1073,
40519,10.1007/s10853-012-6834-z,x=0.15_1523K,Ca0.9Y0.1Mn0.85Fe0.15O3,,,27144,2960,21829,300,-0.000261814,2.03627,1.12E-05,0.001736761,154.487,435.534,2.63902,0.000476658,,1,TRUE,5,0,-261.814,261.814,0.104662,1.60466,1.60466E-08,0.000743696,2.03552,
40344,10.1039/c5ta01967b,x=0.05,Sr5Zn0.05In1.95Sb6,,Antimonide,13183,2814,11013,300,0.00019593,1.1509,,0.003571429,401.32,523.394,2.71883,0.001014837,,1,TRUE,4,46,195.93,195.93,0.184695,1.68469,1.68469E-08,0.002028307,1.14887,
40161,10.1021/cm5004559,"LCS-12S,O",La1.2Cr1S3.2,,,6681,617,5309,300,-5.33E-05,,9.06E-06,0.002654366,3347.17,636.537,2.80382,,,1,TRUE,3,0,-53.3,53.3,0.63161,2.13161,2.13161E-08,0.0214046,-0.0214046,
40000,10.1021/cm504059t,Ca14MgSb11,Ca14MgSb11,ZintlÂ ,,6007,625,4727,300,0.000123226,0.628285,,0.009771987,1360.29,735.229,2.86642,0.002638009,,1,TRUE,3,85,123.226,123.226,0.345662,1.84566,1.84566E-08,0.007531931,0.620753,
39874,10.1016/j.jallcom.2011.03.057,SFS In0.1Rh4Sb12,In0.1Sb12Rh4,,,3677,1684,2494,300,-2.71E-05,2.73214,,0.000781759,8457.59,808.051,2.90744,0.000673701,,0,TRUE,3,96,-27.1,27.1,0.791662,2.29166,2.29166E-08,0.0581458,2.674,
39766,10.1016/j.jallcom.2006.02.075,x=0.10,Y0.1Zr0.9Ni1Sn1,,,11250,1553,9255,300,6.29E-05,3.09875,,0.001474251,3851.25,876.037,2.94252,0.000634842,,1,TRUE,4,17,62.9,62.9,0.581444,2.08144,2.08144E-08,0.02404845,3.0747,
39645,10.1016/j.jallcom.2020.154604,Cu2SnS3 500,Cu2SnS3,,,28317,27524,22767,300,0.000255534,0.402227,4.59E-05,0.0381997,360.145,943.711,2.97484,0.005248716,,1,TRUE,3,0,255.534,255.534,0.110485,1.61048,1.61048E-08,0.001740025,0.400487,
39499,10.1063/1.47887,Bi2Te3,Bi2Te3,Toxic,,17969,6852,15249,300,1.36E-06,,,2.98E-05,216439,1035.19,3.01502,,,1,FALSE,2,28,1.36,1.36,0.988344,2.48834,2.48834E-08,1.61572,-1.61572,
39309,10.1109/ict.2005.1519883,AgPb10SbTe12,AgSb(Te6Pb5)2,Toxic,,16051,8903,13611,300,-0.000477524,0.870178,2.28E-05,0.0106195,33.264,1148.18,3.06001,0.002939972,,1,FALSE,4,127,-477.524,477.524,0.0163001,1.5163,1.5163E-08,0.000151315,0.870026,
39173,10.1038/s41467-019-13461-2,p-type,Bi0.49875Sb1.49625Te3Pb0.0025,Toxic,,26555,22100,21358,300,0.000223331,,3.46E-05,0.04103979,681.292,1225.8,3.08842,,,1,FALSE,4,27,223.331,223.331,0.145837,1.64584,1.64584E-08,0.003363887,-0.003363887,
39026,10.1016/j.ceramint.2015.02.145,0,CoSb3,Skutterudite,Skutterudite,3402,536,2285,300,4.85E-05,1.0672,1.71E-05,0.005066719,7768.82,1337.73,3.12637,0.002935506,,1,TRUE,2,24,48.5,48.5,0.658294,2.15829,2.15829E-08,0.0503022,1.0169,
38880,10.1016/j.ssc.2013.03.013,x=0.05,Bi2Se0.05S2.95,Toxic,,7575,5318,6146,300,-0.000610555,0.625415,2.28E-06,0.001130742,8.99091,1453.07,3.16229,0.005176223,,1,FALSE,3,0,-610.555,610.555,0.005177644,1.50518,1.50518E-08,4.05988E-05,0.625375,
38739,10.1007/s10832-008-9455-9,Sr3(Ti0.9Nb0.1)2O7,Sr3Ti1.8Nb0.2O7,,,28465,2265,22869,300,7.01E-05,,9.04E-05,0.0115767,6100.85,1567.34,3.19516,,,1,TRUE,4,0,70.1,70.1,0.546451,2.04645,2.04645E-08,0.0374553,-0.0374553,
38606,10.1007/s00339-014-8515-z,Nb12O29,Nb12O29,,,23799,233,19333,300,-3.09E-05,,,0.002386635,15413.8,1680.7,3.22549,,,1,TRUE,2,0,-30.9,30.9,0.766148,2.26615,2.26615E-08,0.10479,-0.10479,
38445,10.1016/j.intermet.2014.06.014,Cu2Cd1-xZnxSnSe4_x=0.2,Zn0.2Cd0.8Cu2Sn1Se4,Toxic,,13137,1276,10983,300,0.000242832,2.58509,4.78E-05,0.005432814,809.449,1829.11,3.26224,0.001578592,,1,FALSE,5,0,242.832,242.832,0.12327,1.62327,1.62327E-08,0.003941862,2.58115,
38324,10.1063/1.35858,Fe0.99Co0.01(Ga0.997Ge0.003)3),Ga2.991Fe0.99Co0.01Ge0.009,,,20001,10435,16736,300,-0.000132518,1.37955,5.35E-05,0.01114955,3179.77,1931.79,3.28596,0.003158398,,1,TRUE,4,17,-132.518,132.518,0.319053,1.81905,1.81905E-08,0.0173525,1.3622,
38221,10.1063/1.16294,x=1,LaCoNiO3,Perovskite,,25585,1894,20668,300,0.000585114,1,,0.001983112,16.9149,2034.83,3.30853,0.004533428,,1,TRUE,4,0,585.114,585.114,0.006447349,1.50645,1.50645E-08,7.64441E-05,0.999924,
38071,10.1016/j.jallcom.2006.11.037,x=0,CoSb3,Skutterudite,Skutterudite,3583,1580,2414,300,5.16E-05,9.0184,3.45E-05,0.001466744,11652.9,2142.572,3.33094,0.000533835,,1,TRUE,2,24,51.6,51.6,0.640935,2.14093,2.14093E-08,0.0748441,8.94356,
37923,10.1016/j.jallcom.2013.10.030,CuAg0.025Ga0.975Te2,Ga0.975Cu1Ag0.025Te2,Toxic,,14038,1756,11824,300,1.78E-05,3.57035,,0.002276998,36825.6,2307.38,3.36312,0.001555799,,1,FALSE,4,25,17.8,17.8,0.857745,2.35775,2.35775E-08,0.260476,3.30988,
37785,10.1039/c3ee41935e,AgSbSe2,AgSbSe2,Toxic,,21118,7973,17583,300,0.000311071,0.268457,4.51E-05,0.0505236,482.871,2413.9,3.38272,0.0201973,,1,TRUE,3,0,311.071,311.071,0.0684504,1.56845,1.56845E-08,0.002272078,0.266185,
37653,10.1016/j.intermet.2014.10.015,Cu2.075Cd0.925GeSe4,Cd0.915Cu2.103Ge0.911Se4.071,Toxic,,13150,1281,10989,300,0.000164253,1.72158,,0.0150541,2843.73,2545.06,3.4057,0.003321148,,1,FALSE,4,0,164.253,164.253,0.242689,1.74269,1.74269E-08,0.0148672,1.70671,
37525,10.1002/adfm.200400109,HT3,CoSb3,Skutterudite,Skutterudite,3327,125,2219,300,2.15E-05,0.289135,,0.003403604,34986.3,2653.05,3.42375,0.157323,,1,TRUE,2,24,21.5,21.5,0.830818,2.33082,2.33082E-08,0.24464,0.0444947,
37408,10.1039/c2ee22378c,x=0.0,Sr3GaSb3,Toxic,,6260,866,4951,300,0.000207444,1.02236,,0.0194066,1838.95,2746.39,3.43876,0.006036866,,1,TRUE,3,24,207.444,207.444,0.167243,1.66724,1.66724E-08,0.009197929,1.01316,
37296,10.1021/cm901766y,La_0.08,Ca0.92La0.08Mn1O3,Perovskite,,26961,587,21658,300,-0.000113585,2.6349,7.94E-05,0.048988,5986.31,2858.68,3.45617,0.002447831,,1,TRUE,4,0,-113.585,113.585,0.375619,1.87562,1.87562E-08,0.0336841,2.60122,
37185,10.1063/1.49756,x=0.04,Na0.01Sn0.96Pb0.04Se1,Toxic,,2909,18601,1947,300,0.000131095,1.07619,,0.01958462,4977.58,2970.75,3.47287,0.006305664,,1,FALSE,4,0,131.095,131.095,0.322991,1.82299,1.82299E-08,0.02722225,1.04897,
37096,10.1016/j.ceramint.2007.09.034,"(Sr1-xNdx)n+1TinO3n+1 (x=0.05, n=2)",Sr2.85Nd0.15Ti2O7,Perovskite,Perovskite,10613,504,8691,300,6.82E-05,,4.75E-05,0.00703975,12276.7,3054.62,3.48496,,,1,TRUE,4,0,68.2,68.2,0.555475,2.05548,2.05548E-08,0.0757037,-0.0757037,
36960,10.1021/acs.chemmater.5b03365,"x=1.05,Out",La1.197Nb1S3.197,,,6725,643,5346,300,1.59E-05,1.41207,1.22E-05,0.002647438,56781.8,3182.99,3.50284,0.007089362,,1,TRUE,3,0,15.9,15.9,0.87191,2.37191,2.37191E-08,0.404044,1.00803,
36849,10.1021/cm403345a,x=2,Eu11Cd6(Sb5As)2,Toxic,,5997,611,4718,300,7.62E-05,0.777253,,0.0254603,11644.9,3294.304,3.51776,0.0103971,,1,FALSE,4,0,76.2,76.2,0.518458,2.01846,2.01846E-08,0.070514,0.706739,
36708,10.1002/pssr.201308274,Cu2.2Zn0.8SnSe4,Zn0.8Cu2.2Sn1Se4,Toxic,,14265,4505,12047,300,0.000114656,1.55738,,0.0385289,7052.32,3414.92,3.53338,0.005010566,,1,TRUE,4,0,114.656,114.656,0.372167,1.87217,1.87217E-08,0.0396094,1.51777,
36557,10.1063/1.16294,x=0.3,La1Co0.3Ni0.7O3,Perovskite,,25588,1894,20668,300,-1.3E-05,3.73944,,0.000956774,77320.3,3539.82,3.54898,0.002482427,,1,TRUE,4,0,-13,13,0.893983,2.39398,2.39398E-08,0.55531,3.18413,
36421,10.1016/j.matlet.2014.10.072,x=0.3,Fe0.3Co3.7Sb12I1,Skutterudite,,4580,3779,3351,300,6.05E-05,1.00873,,0.0111855,16766,3653.44,3.5627,0.009035483,,1,TRUE,4,0,60.5,60.5,0.593599,2.0936,2.0936E-08,0.105304,0.90343,
36267,10.1016/j.ceramint.2010.08.024,x=0.15,La1Co0.85Ni0.15O3,Perovskite,Perovskite,10654,507,8710,300,0.000150772,1.36308,0.000117227,0.0259922,4972.93,3781.97,3.57772,0.0062999,,1,TRUE,4,0,150.772,150.772,0.272598,1.7726,1.7726E-08,0.026445,1.33663,
36152,10.1016/j.jallcom.2011.11.072,x=0.02,Ag0.06Bi1.98S3,Toxic,,6877,1696,5487,300,-0.000245593,0.774674,0.000100542,0.0421053,1672.82,3903.85,3.59149,0.0113413,,1,FALSE,3,0,-245.593,245.593,0.12037,1.62037,1.62037E-08,0.008131748,0.766542,
36050,10.1039/c4ta05135a,Pb3Bi2S6_in-plane,Bi2(PbS2)3,Toxic,,9449,2802,7761,300,-5.81E-05,0.935384,6.41E-05,0.0213699,19280.7,4020.22,3.60425,0.0110532,,1,FALSE,3,0,-58.1,58.1,0.606008,2.10601,2.10601E-08,0.121816,0.813568,
35933,10.1063/1.47935,RuIn3,In3Ru,Expensive,,19887,2091,16648,300,-0.000419287,2.01989,4.24E-05,0.007054658,237.367,4167.84,3.61991,0.00459918,,0,TRUE,2,17,-419.287,419.287,0.0269292,1.52693,1.52693E-08,0.001087326,2.0188,
35806,10.1109/ict.2003.1287488,??-Na0.5CoO2,Na0.5Co1O2,,,18933,8854,15873,300,6.63E-05,2.7626,,0.008761183,17922.5,4316.09,3.63509,0.00362935,,1,TRUE,3,0,66.3,66.3,0.564649,2.06465,2.06465E-08,0.111011,2.65159,
35670,10.1088/0022-3727/42/5/055010,Ca1?ÃªÃ†xYxMnO3_0.1,Ca0.9Y0.1Mn1O3,Perovskite,,27154,3275,21835,300,-8.29E-05,2.48798,0.000100378,0.0216226,14297.3,4474.3,3.65073,0.004149667,,1,TRUE,4,0,-82.9,82.9,0.489361,1.98936,1.98936E-08,0.0853277,2.40265,
35554,10.1016/j.jallcom.2015.10.052,PbS,PbS,,,2586,9763,1676,300,-0.00023306,1.22777,6.14E-05,0.00828593,2281.07,4598.66,3.66263,0.008418085,,1,FALSE,2,0,-233.06,233.06,0.134104,1.6341,1.6341E-08,0.0111825,1.21659,
35436,10.1016/j.jallcom.2010.05.160,Before,CoSb3,Skutterudite,Skutterudite,5256,9594,3971,300,8.9E-05,9.67469,,0.239947,13750.8,4701.18,3.67221,0.001091689,,1,TRUE,2,24,89,89,0.464292,1.96429,1.96429E-08,0.08103188,9.59366,
35311,10.7566/jpsj.84.044706,x=0.05,Cu3Sn0.05Sb0.95S4,,,4490,3631,3266,300,0.000202153,3.37126,,0.0128693,3459.08,4854.51,3.68615,0.003223937,,1,TRUE,4,0,202.153,202.153,0.175047,1.67505,1.67505E-08,0.0173824,3.35388,
35141,10.1016/j.jallcom.2016.07.197,x=0.05,Sr0.05Nd0.95Zn1Sb1O1,Antimonide,Antimonide,13527,9841,11304,300,9.63E-05,2.27094,0.000122192,0.0165746,13279.1,5034.1,3.70192,0.0051115,,1,TRUE,5,0,96.3,96.3,0.435974,1.93597,1.93597E-08,0.0771239,2.19381,
35030,10.1016/j.jpcs.2014.04.008,x=0.020,Mg2Si0.98Bi0.02,Mg2Si,Mg2Si,8824,3177,7279,300,-0.000107982,9.40719,0.001604651,0.0548507,11671.2,5178.85,3.71423,0.001235043,,1,FALSE,3,8,-107.982,107.982,0.394207,1.89421,1.89421E-08,0.0663232,9.34087,
34923,10.2497/jjspm.59.121,MQ,Bi2Te2.85Se0.15,Toxic,Bi2Te3,17791,1050,15115,300,5.53E-05,,,0.0222222,26787.7,5300.2,3.72429,,,1,FALSE,3,0,55.3,55.3,0.620814,2.12081,2.12081E-08,0.170435,-0.170435,
34760,10.1063/1.48618,0.01,Cr0.99Mo0.01N1,,,19698,394,16524,300,-6.98E-05,1.70048,0.000106299,0.0187602,21389.5,5461.4,3.7373,0.007765619,,1,TRUE,3,0,-69.8,69.8,0.547866,2.04787,2.04787E-08,0.131409,1.56907,
34628,10.1016/j.intermet.2014.10.015,Cu2CdGeSe4,Cd0.95Cu2.086Ge0.906Se4.058,Toxic,,13147,1281,10989,300,0.000427744,1.37971,,0.0127609,289.668,5610.92,3.74903,0.009068231,,1,FALSE,4,0,427.744,427.744,0.0250358,1.52504,1.52504E-08,0.00132526,1.37838,
34522,10.1109/ict.2007.4569432,Ag8Tl2Te5.1,Tl2Ag8Te5.1,Toxic,,16138,9088,13683,300,0.00063533,0.345799,1.08E-05,0.0101085,26.5502,5720.06,3.7574,0.0368631,,1,FALSE,3,116,635.33,635.33,0.004181929,1.50418,1.50418E-08,0.000119809,0.345679,
34371,10.1063/1.32666,x=0.02,In4Se2.98,Toxic,,10685,320,8740,300,-0.000503686,0.944068,3.1E-05,0.0111701,125.524,5869.49,3.7686,0.0138587,,1,TRUE,2,0,-503.686,503.686,0.0130089,1.51301,1.51301E-08,0.000569758,0.943498,
34214,10.1007/s11664-010-1474-z,(c)x=0.10,Ti0.9Co0.1S2,,,8210,11118,6729,300,-0.000181544,3.76965,0.000168468,0.0136207,5502.44,6053.17,3.78198,0.003603309,,1,TRUE,3,0,-181.544,181.544,0.209081,1.70908,1.70908E-08,0.02821232,3.74144,
34079,10.3724/sp.j.1077.2010.00573,Zr0.98Ce0.02NiSn,Ce0.02Zr0.98Ni1Sn1,Half-heusler,,12046,5543,9994,300,-8.82E-05,7.26255,,0.0131131,18364.1,6212.88,3.79329,0.001934736,,1,TRUE,4,0,-88.2,88.2,0.467505,1.96751,1.96751E-08,0.108395,7.15416,
33949,10.1039/c5tc02326b,Yb14MnSb11,Yb14MnSb11,Zintl,Antimonide,13203,2852,11030,300,2.9E-05,1.09728,,0.0213415,62672.4,6405.4,3.80655,0.0218318,,1,TRUE,3,0,29,29,0.778801,2.2788,2.2788E-08,0.428453,0.668823,
33828,10.1063/1.30031,R=Dy,Ca0.9Dy0.1Mn1O3,Perovskite,,25963,1977,20897,300,-8.2E-05,2.63286,0.000142139,0.0168448,21148.8,6529.18,3.81486,0.005805628,,1,TRUE,4,0,-82,82,0.493172,1.99317,1.99317E-08,0.126459,2.5064,
33654,10.1039/c3ce40334c,CuInTe2,InCuTe2,Toxic,,27261,735,21913,300,0.000253666,3.86859,0.000177799,0.0152672,2630.6,6744.97,3.82898,0.003896513,,1,FALSE,3,25,253.666,253.666,0.112278,1.61228,1.61228E-08,0.01272378,3.85586,
33523,10.1063/1.35058,Ca1?ÃªÃ†xSrxMn0.98Mo0.02O3_x=0,Ca1Mn0.98Mo0.02O3,Perovskite,,27315,10427,21948,300,-0.000107622,2.3908,0.000177294,0.0222589,15627.5,6901.27,3.83893,0.006676353,,1,TRUE,4,0,-107.622,107.622,0.395432,1.89543,1.89543E-08,0.0888626,2.30194,
33367,10.1109/ict.2006.331285,n=2 Nb20%,Sr3Ti1.6Nb0.4O7,,,28534,9003,22954,300,4.01E-05,,0.000146735,0.0129961,50103.6,7103.69,3.85148,,,1,TRUE,4,0,40.1,40.1,0.707732,2.20773,2.20773E-08,0.331846,-0.331846,
33215,10.1016/j.actamat.2015.08.079,x=0.3,Ca0.3Cu1Bi0.7Se1O1,Toxic,,20989,5858,17478,300,9.46E-05,0.746142,0.000183516,0.0734994,19704.6,7294.97,3.86302,0.0257352,,1,FALSE,5,0,94.6,94.6,0.44241,1.94241,1.94241E-08,0.114823,0.631319,
33079,10.1109/ict.2007.4569439,Yb_x=0.1,Ca0.9Yb0.1Mn1O3,Perovskite,,27185,9094,21858,300,-6.92E-05,1.74027,0.000134183,0.0307874,29497,7459.71,3.87272,0.01068372,,1,TRUE,4,0,-69.2,69.2,0.550707,2.05071,2.05071E-08,0.181469,1.5588,
32975,10.1063/1.3608,x=0.20,Ca5Al1.8Zn0.2Sb6,Antimonide,Antimonide,13612,10264,11368,300,9.43E-05,1.44056,,0.0318182,20679.4,7628.05,3.88241,0.0128724,,1,TRUE,4,47,94.3,94.3,0.443556,1.94356,1.94356E-08,0.120575,1.31998,
32864,10.2320/matertrans.e-mra2007837,Ag9TlTe5.2,Tl1Ag9Te5.2,Toxic,,14967,3982,12674,300,0.000272791,0.263665,0.000173367,0.21983,2428.81,7780.81,3.89102,0.0686695,,1,FALSE,3,124,272.791,272.791,0.0952123,1.59521,1.59521E-08,0.0116234,0.252042,
32735,10.1039/c3ta11457k,"Cux+yBi5-ySe8 (x=1.45, y=0.35)",Cu1.8Bi4.65Se8,Toxic,,13560,2764,11334,300,-0.000111072,0.549629,,0.118353,17159,7929.85,3.89927,0.0389294,,1,FALSE,3,0,-111.072,111.072,0.383845,1.88384,1.88384E-08,0.0969746,0.452654,
32561,10.1016/j.jallcom.2010.05.034,Zn4Sb2.94Bi0.06,Zn4Bi0.06Sb2.94,Toxic,,16729,1658,14246,300,5.39E-05,0.732316,,0.283032,42486.9,8172.75,3.91237,0.0402069,,1,FALSE,3,55,53.9,53.9,0.628352,2.12835,2.12835E-08,0.271281,0.461034,
32424,10.1063/1.49534,Cu1.94S,Cu1.94S1,,,7660,6492,6237,300,5.75E-05,0.91563,0.00017667,0.0159883,40477.4,8354,3.92189,0.0285221,,1,TRUE,2,0,57.5,57.5,0.609151,2.10915,2.10915E-08,0.256119,0.659511,
32306,10.1063/1.31036,x=0.15,Zn1In0.15Cu2Sn0.85Se4,Toxic,,12817,311,10627,300,7.94E-05,3.46051,,0.0152424,28593.6,8498.005,3.92932,0.005759688,,1,TRUE,5,0,79.4,79.4,0.504351,2.00435,2.00435E-08,0.171935,3.28858,
32215,10.1007/s11664-011-1846-z,Tl9GdTe6,Gd(Tl3Te2)3,Toxic,,14249,2393,12033,300,2.84E-05,1.12951,,0.0516556,86122.2,8621.45,3.93558,0.0370069,,1,FALSE,3,0,28.4,28.4,0.782839,2.28284,2.28284E-08,0.589809,0.5397,
32053,10.1016/j.jallcom.2015.08.046,Cu2ZnGa0.1Sn0.9Se4,Zn1Ga0.1Cu2Sn0.9Se4,Toxic,,13260,1825,11084,300,0.000102481,3.02568,0.000231641,0.0282214,21410.3,8827.68,3.94585,0.006772935,,1,TRUE,5,0,102.481,102.481,0.413352,1.91335,1.91335E-08,0.122896,2.90279,
31939,10.1007/s11665-016-2063-y,x=18,Ba7.88Ga16.52Sn29.6,,,2375,18565,1513,300,0.000195055,,,0.204396,6965.74,8991.24,3.95382,,,1,TRUE,3,183,195.055,195.055,0.186093,1.68609,1.68609E-08,0.0352347,-0.0352347,
31780,10.1016/j.materresbull.2010.03.018,x=0.03,Sr0.87La0.1Dy0.03Ti1O3,Perovskite,,27997,3806,22511,300,-6.94E-05,6.26045,0.000231924,0.0184855,36165.2,9173.39,3.96253,0.0033868,,1,TRUE,5,0,-69.4,69.4,0.549759,2.04976,2.04976E-08,0.22239,6.03806,
31623,10.15541/jim20140396,melted for 12h,In4Se3,Toxic,,14321,5560,12122,300,-0.000528311,0.721381,,0.02455243,151.659,9437.33,3.97485,0.0291715,,1,TRUE,2,0,-528.311,528.311,0.0105208,1.51052,1.51052E-08,0.000687251,0.720694,
31486,10.1021/cm1004054,0.19,Yb0.079La0.348Te0.574,Toxic,,13795,595,11517,300,-0.000128787,0.899775,,0.0971098,16648.7,9653,3.98466,0.0265404,,1,FALSE,3,0,-128.787,128.787,0.329482,1.82948,1.82948E-08,0.0913758,0.808399,
31342,10.1016/j.ceramint.2014.07.028,CDM-Ho,Ca0.96Dy0.02Ho0.02Mn1O3,Perovskite,,24628,526,19961,300,-0.000140379,1.50209,0.000286911,0.0763563,14712,9852.36,3.99354,0.0154059,,1,TRUE,5,0,-140.379,140.379,0.298148,1.79815,1.79815E-08,0.079363,1.42273,
31233,10.1007/s11664-012-2331-z,x=4,K2Bi8Se9S4,Toxic,,13495,2448,11295,300,-0.000119818,0.501958,0.000271666,0.166594,19457.1,10069.3,4.003,0.0567346,,1,FALSE,4,0,-119.818,119.818,0.355968,1.85597,1.85597E-08,0.108335,0.393623,
31129,10.1063/1.34958,x=1.3,In6.3Ga1.7Sn2O16,,,26799,2022,21552,300,-4.61E-05,1.86524,0.000134991,0.0235583,62562.5,10234.3,4.01006,0.0157959,,1,TRUE,4,0,-46.1,46.1,0.672056,2.17206,2.17206E-08,0.407668,1.45757,
31039,10.1007/s11664-010-1188-2,In0.05Co3FeSb12,In0.05Fe1Co3Sb12,Skutterudite,,4052,2313,2798,300,5.55E-05,2.36677,0.000174154,0.018345,52322.5,10389.9,4.01661,0.0114336,,1,TRUE,4,95,55.5,55.5,0.619744,2.11974,2.11974E-08,0.332731,2.03404,
30944,10.1016/j.jallcom.2003.07.016,x=0,Ba0.9La0.1Ti1O3,Perovskite,,26557,1484,21362,300,-0.000115388,3.31624,,8.76E-05,21520.7,10520.2,4.02203,0.007330286,,1,TRUE,4,0,-115.388,115.388,0.369825,1.86983,1.86983E-08,0.12072,3.19552,
30809,10.1063/1.48692,non-SiC,AgSb(TePb)20,Toxic,,16940,6895,14457,300,-0.000300812,1.49565,0.000212509,0.0499405,2408.6,10688.3,4.02891,0.0160383,,1,FALSE,4,215,-300.812,300.812,0.0747798,1.57478,1.57478E-08,0.011379,1.48427,
30679,10.1016/j.jallcom.2015.01.025,x=1.00,La(Tl3Te2)3,Toxic,,14105,1799,11904,300,0.000125003,0.403058,0.000296095,0.230949,19607.8,10839.2,4.035,0.0813527,,1,FALSE,3,66,125.003,125.003,0.340407,1.84041,1.84041E-08,0.108259,0.294799,
30541,10.1002/adfm.201000970,x=0.25,Na0.25Ca4.75Al2Sb6,,,5875,133,4609,300,0.000140957,1.45971,,0.0855297,16396.292,11058.8,4.04371,0.0179364,,1,TRUE,4,45,140.957,140.957,0.296667,1.79667,1.79667E-08,0.088376,1.37134,
30421,10.1021/acs.chemmater.5b02446,Mn1.05-JPL,Yb14Mn1.05Sb11,Zintl,,6233,637,4922,300,5.89E-05,0.886348,,0.0675492,52928.9,11210,4.04961,0.04592173,,1,TRUE,3,0,58.9,58.9,0.601843,2.10184,2.10184E-08,0.333745,0.552604,
30271,10.1039/c6ta09189j,PbTe0.5Se0.5,Te0.5Pb1Se0.5,Toxic,,2789,18591,1843,300,0.000420349,0.42618,,0.09397706,642.57,11422.7,4.05777,0.0601161,,1,FALSE,3,0,420.349,420.349,0.02668381,1.52668,1.52668E-08,0.002943005,0.423237,
30160,10.1016/j.jallcom.2014.09.198,MnTe,MnTe,Toxic,,14045,1793,11839,300,0.000536137,1.32617,,0.0142322,169.732,11565.9,4.06318,0.01944,,1,FALSE,2,13,536.137,536.137,0.009834382,1.50983,1.50983E-08,0.000768802,1.3254,
30023,10.1063/1.35793,x=3.8,Ag3.8Mo9Se11,Chalcogenide,Chalcogenide,17609,340,14977,300,8.04E-05,0.855465,,0.0834123,39034.6,11776.8,4.07103,0.0423748,,1,TRUE,3,0,80.4,80.4,0.500022,2.00002,2.00002E-08,0.23421,0.621255,
29844,10.1039/c3ta12753b,x=0.175,Cu1Bi0.825Pb0.175Se1O1,Toxic,,28057,2770,22548,300,5.76E-05,1.40157,0.000422221,0.142873,58414.6,12065.1,4.08153,0.0263024,,1,FALSE,5,0,57.6,57.6,0.608626,2.10863,2.10863E-08,0.369523,1.03205,
29706,10.3390/app8010052,x=0.19(cooled),Ag0.81Sb1.19Te2.19,Toxic,,10712,18753,8759,300,0.000157299,,,0.183076,14903.8,12267.5,4.08876,,,1,FALSE,3,27,157.299,157.299,0.257683,1.75768,1.75768E-08,0.0785887,-0.0785887,
29547,10.1016/j.jpcs.2015.03.012,x=0.005,In1Cu0.995Ni0.005Te2,Toxic,,14495,3181,12334,300,0.000226672,,,0.0262348,6687.5,12512.433,4.09734,,,1,FALSE,4,25,226.672,226.672,0.141696,1.6417,1.6417E-08,0.0329365,-0.0329365,
29454,10.1063/1.14891,y=0.10,Mg0.09975Al0.0025Zn0.89775O1,,,27546,9968,22125,300,-7.06E-05,12.4268,0.000302172,0.0181302,48894.6,12660.2,4.10244,0.002326697,,1,TRUE,4,0,-70.6,70.6,0.544101,2.0441,2.0441E-08,0.299837,12.1269,
29299,10.1007/s11664-015-4242-2,SPS760,Ba8Cu4.8Si41.2,,,2399,10939,1531,300,-3.19E-05,0.699738,,0.0513575,114344,12885.9,4.11012,-0.276607,,1,TRUE,3,228,-31.9,31.9,0.759572,2.25957,2.25957E-08,0.775108,-0.07537,
29178,10.1063/1.49386,x=0.8,Tl0.8Fe1Co3Sb12,Skutterudite,,3338,188,2220,300,9.72E-05,2.14095,,0.0477051,34064.7,13075.4,4.11645,0.0149833,,1,TRUE,4,97,97.2,97.2,0.432605,1.9326,1.9326E-08,0.197501,1.94344,
29075,10.1007/s11664-010-1444-5,x=0,Fe0.1Co0.9Sb3,,,5739,11105,4461,300,3.99E-05,3.958,,0.009372571,93607.4,13212.5,4.12098,0.008879869,,1,TRUE,3,23,39.9,39.9,0.708953,2.20895,2.20895E-08,0.620323,3.33767,
28948,10.1016/j.ssc.2015.06.012,Zn4Sb2.8,Zn4Sb2.8,Zintl,Antimonide,17163,5329,14673,300,7.88E-05,0.787965,0.000274757,0.108766,45573.7,13413.3,4.12754,0.0585096,,1,TRUE,2,54,78.8,78.8,0.506967,2.00697,2.00697E-08,0.274395,0.513571,
28871,10.1088/0022-3727/45/18/185303,x=0.2,La3Te3.8Pb0.2,Toxic,,14548,3294,12350,300,-3.92E-05,1.51099,0.000136578,0.0285919,97499.4,13521.2,4.13101,0.0358772,,1,FALSE,3,32,-39.2,39.2,0.713244,2.21324,2.21324E-08,0.64737,0.863621,
28736,10.1002/admi.201900467,Zn1.06Ge0.04Sb,Zn1.06Ge0.04Sb1,,,27469,24583,22054,300,0.000154253,1.52395,0.00041166,0.0946163,17309,13731.7,4.13772,0.02131834,,1,TRUE,3,15,154.253,154.253,0.264539,1.76454,1.76454E-08,0.091627,1.43233,
28626,10.1039/c6qi00162a,Ag0.5-SPS,In1Cu0.45Ag0.5Te2,Toxic,,15952,8566,13580,300,0.00039669,1.47906,0.000171046,0.0376319,1029.59,13908,4.14327,0.0210139,,1,FALSE,4,24,396.69,396.69,0.0327209,1.53272,1.53272E-08,0.004734221,1.47433,
28493,10.1002/adfm.200800298,x=0.2,Yb14Mn0.8Al0.2Sb11,Zintl,,5867,127,4602,300,6.55E-05,0.941562,,0.0653773,59191.9,14072.1,4.14836,0.05534524,,1,TRUE,4,0,65.5,65.5,0.568556,2.06856,2.06856E-08,0.367325,0.574237,
28360,10.1016/j.jallcom.2014.06.196,x=0.3,In4Sn0.03Pb0.01Se2.7,Toxic,,13245,1784,11075,300,-0.000193764,1.02506,0.000417025,0.1354,11220.9,14264.8,4.15427,0.0327549,,1,FALSE,4,0,-193.764,193.764,0.188176,1.68818,1.68818E-08,0.0568285,0.96823,
28284,10.1016/j.jallcom.2015.08.046,Cu2.1Zn0.9Ga0.04Sn0.96Se4,Zn0.9Ga0.04Cu2.1Sn0.96Se4,Toxic,,13261,1825,11084,300,5.58E-05,3.42155,0.000226294,0.0244383,72032.1,14395.1,4.15822,0.0108682,,1,TRUE,5,0,55.8,55.8,0.618144,2.11814,2.11814E-08,0.457723,2.96383,
28136,10.1016/j.jallcom.2016.04.210,x=0,Ba4Cu3Si20,Clathrate,,2224,9813,1389,300,2.64E-05,2.37629,0.000113867,0.0137353,157160,14633.3,4.16534,0.0259303,,1,TRUE,3,118,26.4,26.4,0.796454,2.29645,2.29645E-08,1.08274,1.29356,
28009,10.1002/ejic.201501063,f=0.034 SiC,SiC,,,15933,8142,13541,300,6.28E-05,3.04787,0.000184136,0.024914,65358.1,14834.8,4.17128,0.0125654,,1,TRUE,2,0,62.8,62.8,0.581945,2.08195,2.08195E-08,0.408216,2.63966,
27874,10.1007/s11664-014-3560-0,L2,Sr0.8La0.067Ti0.8Nb0.2O3,Perovskite,,26709,2639,21478,300,-0.000746022,2.99959,,0.002202519,19.2996,15022.3,4.17674,0.0111571,,1,TRUE,5,0,-746.022,746.022,0.001610478,1.50161,1.50161E-08,8.69414E-05,2.9995,
27708,10.1021/ic500026t,AlCCo3,AlCo3C,Perovskite,,1861,1183,1143,300,1.36E-05,8.77,,0.001918819,319118,15315.8,4.18514,0.005290773,,1,TRUE,3,0,13.6,13.6,0.88937,2.38937,2.38937E-08,2.28747,6.48253,
27614,10.1002/zaac.201200284,SnBi4Te7,SnBi4Te7,Toxic,,9671,5667,7917,300,0.000119222,0.536913,0.000421939,0.272623,30105.1,15461.7,4.18926,0.0926425,,1,FALSE,3,66,119.222,119.222,0.357802,1.8578,1.8578E-08,0.167788,0.369125,
27469,10.1016/j.jallcom.2017.06.075,600h,TePb,Toxic,,2572,18573,1655,300,2.88E-05,1.67761,,0.0367209,154286,15688.8,4.19559,0.0597406,,1,FALSE,2,10,28.8,28.8,0.780145,2.28014,2.28014E-08,1.05538,0.622232,
27399,10.1002/admi.201900467,Zn1.08Ge0.02Sb,Zn1.08Ge0.02Sb1,,,27468,24583,22054,300,0.000162138,1.50875,0.000476923,0.112257,18127,15816.2,4.1991,0.0248723,,1,TRUE,3,15,162.138,162.138,0.247155,1.74715,1.74715E-08,0.095012,1.41373,
27307,10.1063/1.29476,Exp,Ba4Al8Ge15,Clathrate,,779,1965,424,300,-3.26E-05,1.99754,,0.0255072,138816.689,15954.3,4.20288,0.0347211,,1,TRUE,3,92,-32.6,32.6,0.7550023,2.255,2.255E-08,0.939096,1.05844,
27173,10.1039/c4ta01250j,Cu1.85S,Cu1.85S1,,,7211,2788,5784,300,2.4E-05,1.7838,0.000102069,0.0210462,190571,16143.3,4.20799,0.0856219,,1,TRUE,2,0,24,24,0.813104,2.3131,2.3131E-08,1.32243,0.46137,
27044,10.1016/j.jallcom.2010.07.116,(d)x=0.10,Ti0.1Cr0.9Sb2,Antimonide,Antimonide,12973,1667,10799,300,-6E-05,7.71059,,0.009705643,75808.7,16374.3,4.21416,0.00505115,,1,TRUE,3,15,-60,60,0.596163,2.09616,2.09616E-08,0.476722,7.23387,
26930,10.1016/j.actamat.2005.12.032,x=15,Ba24(Ga3Ge17)5,,,546,27,244,300,-5.6E-05,0.807229,0.000268027,0.101677,82386.5,16527.1,4.2182,0.136844,,1,TRUE,3,433,-56,56,0.617079,2.11708,2.11708E-08,0.523256,0.283973,
26830,10.1063/1.48019,x=0.003,Sm0.012Zn3.988Sb3,,,16464,381,13954,300,0.000114675,1.04504,5.4438,0.159369,34513.3,16716.6,4.22315,0.043615,,1,TRUE,3,0,114.675,114.675,0.372106,1.87211,1.87211E-08,0.193837,0.851201,
26725,10.1016/j.jmat.2018.02.002,x=0.04,Ga0.96Fe0.04Cu1Te2,Toxic,,10729,18754,8777,300,0.000282927,6.96771,0.000371144,0.0288014,4682.44,16877.7,4.22731,0.005412986,,1,FALSE,4,25,282.927,282.927,0.0872458,1.58725,1.58725E-08,0.0222966,6.94541,
26643,10.1016/j.jallcom.2015.04.190,Mg2Si0.577Ge0.4Bi0.023,Mg2Si0.577Ge0.4Bi0.023,Mg2Si,Mg2Si,8423,1816,6902,300,-0.000102831,3.37259,,0.0409425,41108.8,17030,4.23121,0.0120886,,1,FALSE,4,8,-102.831,102.831,0.412106,1.91211,1.91211E-08,0.235813,3.13677,
26512,10.1016/j.jallcom.2017.07.210,IIHP760,Ba8Cu4.5Si6Ge35.5,,,2386,18550,1520,300,-3.51E-05,1.73501,,0.0766147,139201,17260.1,4.23704,0.0502566,,1,TRUE,4,227,-35.1,35.1,0.738905,2.2389,2.2389E-08,0.934972,0.800037,
26373,10.1063/1.47111,K4Ba4Zn6Ge40,K2Ba2Zn3Ge20,,,838,2057,458,300,-9.52E-05,1.96937,0.000263449,0.0287925,46923.9,17514.4,4.2434,0.0229955,,1,TRUE,4,116,-95.2,95.2,0.440128,1.94013,1.94013E-08,0.273115,1.69626,
26294,10.1021/acs.chemmater.5b00801,x=1.1,In1.1Co3Sn0.9S2,Perovskite,,6709,634,5334,300,8.09E-05,,,0.0486113,58132,17664.3,4.2471,,,1,TRUE,4,0,80.9,80.9,0.497871,1.99787,1.99787E-08,0.348421,-0.348421,
26177,10.1002/zaac.201300577,0.2Sn0.8Bi,Tl9Sn0.2Bi0.8Te6,Toxic,,15125,5670,12829,300,8.91E-05,0.89963,0.00042073,0.228358,52168.8,17868.5,4.25209,0.0672987,,1,FALSE,4,67,89.1,89.1,0.463892,1.96389,1.96389E-08,0.307361,0.592269,
26077,10.1063/1.48686,MnTe0.95S0.05,Mn1Te0.95S0.05,Toxic,,14189,2140,11963,300,0.000526794,1.00454,,0.0374653,294.628,18014,4.25561,0.0400016,,1,FALSE,3,0,526.794,526.794,0.0106592,1.51066,1.51066E-08,0.001335247,1.0032,
25956,10.1021/cm0708517,Re3GeAs6,Re3GeAs6,Toxic,Antimonide,12850,576,10669,300,-6.61E-05,3.87187,0.000376813,0.0254886,75906.7,18227.2,4.26072,0.0119721,,1,FALSE,3,55,-66.1,66.1,0.565623,2.06562,2.06562E-08,0.470384,3.40148,
25868,10.1002/adfm.201601486,y=0.20,In0.2Cu1.85Ag0.15Sn0.8Se3,Toxic,,14512,5989,12316,300,5.35E-05,2.65771,0.000281539,0.0419018,96183.3,18375.2,4.26423,0.0202222,,1,TRUE,5,0,53.5,53.5,0.630522,2.13052,2.13052E-08,0.614762,2.04295,
25761,10.1021/acs.chemmater.5b04796,x=0.5,Cu12Sb4Se0.5S12.5,Toxic,,7752,7390,6308,300,8.39E-05,1.18365,0.00040365,0.110549,58398.1,18564.9,4.26869,0.0496088,,1,TRUE,4,0,83.9,83.9,0.48516,1.98516,1.98516E-08,0.347789,0.835864,
25654,10.1016/j.jallcom.2008.09.202,x=0.10,Zn3.6In0.1Sb2.7,,,16631,1620,14154,300,0.00017177,1.84912,,0.0915693,19179.1,18781.4,4.27373,0.0238689,,1,TRUE,3,49,171.77,171.77,0.227461,1.72746,1.72746E-08,0.09939365,1.74973,
25546,10.2320/jinstmet.69.497,"m=0,n=0.3",La0.3Fe1Co3Sb12,Skutterudite,,4648,4295,3410,300,5.76E-05,,,0.150124,92207,19030.5,4.27945,,,1,TRUE,4,95,57.6,57.6,0.608626,2.10863,2.10863E-08,0.58329,-0.58329,
25434,10.1007/s11664-012-1908-x,AgSn3Pb15SbTe20,AgSn3Sb(Te4Pb3)5,Toxic,,16749,2351,14265,300,0.000146859,1.41647,0.000568429,0.122652,26517.4,19227.5,4.28392,0.0335035,,1,FALSE,5,207,146.859,146.859,0.28195,1.78195,1.78195E-08,0.141758,1.27471,
25336,10.1063/1.47594,J,Ba0.15Yb0.27Fe1.9Co2.2Sb12,Skutterudite,,4011,2075,2763,300,6.19E-05,2.24024,,0.0505085,86899.6,19400.3,4.28781,0.02567788,,1,TRUE,5,0,61.9,61.9,0.586478,2.08648,2.08648E-08,0.543942,1.6963,
25238,10.2320/jinstmet.74.321,2,Zn4Sb3,Zintl,Antimonide,17116,4306,14635,300,0.000134701,,0.000565157,0.197368,31398.6,19600.7,4.29227,,,1,TRUE,2,55,134.701,134.701,0.313105,1.81311,1.81311E-08,0.170787,-0.170787,
25152,10.1109/ict.2007.4569461,Co=0.1,Zn3.9Co0.1Sb3,,,5209,9108,3910,300,0.000117242,0.007627119,,0.201145,39432.6,19743.2,4.29542,-0.209869,,1,TRUE,3,54,117.242,117.242,0.363962,1.86396,1.86396E-08,0.220502,-0.212875,
25055,10.1002/adma.201200732,PPMS,GaCuTe2,Toxic,,13695,157,11441,300,0.000368781,8.64711,,0.008826806,2043.64,19967.3,4.30032,0.005149649,,1,FALSE,3,25,368.781,368.781,0.0416212,1.54162,1.54162E-08,0.009451557,8.63766,
24944,10.1016/j.intermet.2011.11.021,x=0.05,Zn12.35Cd0.65Sb10,,,16539,1256,14070,300,0.000148414,,0.000605631,0.244875,27280,20159.5,4.30448,,,1,FALSE,3,180,148.414,148.414,0.278196,1.7782,1.7782E-08,0.145527,-0.145527,
24804,10.1016/j.actamat.2015.08.040,Cu11.0Co1.0Sb4S13,CoCu11Sb4S13,Skutterudite,,6580,79,5208,300,0.000133898,0.8138253,0.000597639,0.420861,32958.3,20370.3,4.309,0.0710897,,1,TRUE,4,0,133.898,133.898,0.31528,1.81528,1.81528E-08,0.179486,0.63434,
24641,10.1016/j.actamat.2012.09.035,"Ti1.031S2,Out",Ti1.031S2,Chalcogenide,Titanium disulfide (TiS2),6531,52,5197,300,-3.54E-05,2.29995,0.00022013,0.026749,165282,20672.3,4.31539,0.0400712,,1,TRUE,2,0,-35.4,35.4,0.736996,2.237,2.237E-08,1.10921,1.19074,
24543,10.1063/1.49015,x=0.15,Tl9Sn0.15Bi0.85Te6,Toxic,,14198,2168,11975,300,0.000102548,0.744277,0.000541582,0.251757,50578.8,20873.3,4.31959,0.101993,,1,FALSE,4,67,102.548,102.548,0.413113,1.91311,1.91311E-08,0.290289,0.453988,
24443,10.2320/matertrans.e-m2009803,TlTe,TlTe,Toxic,,14986,4001,12690,300,3.58E-05,4.02236,0.000250306,0.0190895,166579,21061.4,4.32349,0.0163831,,1,FALSE,2,9,35.8,35.8,0.734459,2.23446,2.23446E-08,1.11664,2.90572,
24327,10.1002/pssa.201329185,x=0.005,Mg2Si0.5895Sn0.41Sb0.005,Mg2Si,Mg2Si,9304,4528,7652,300,-0.000191345,2.04678,,0.0990434,17227.8,21284.782,4.32807,0.0241637,,1,TRUE,4,8,-191.345,191.345,0.192141,1.69214,1.69214E-08,0.0874554,1.95933,
24199,10.1063/1.48631,TiS,TiS2,Chalcogenide,,7018,2135,5616,300,-5.87E-05,2.86662,0.000348665,0.0363123,102131,21515.3,4.33275,0.02173676,,1,TRUE,2,0,-58.7,58.7,0.602882,2.10288,2.10288E-08,0.64431,2.22231,
24063,10.1021/cm902001c,43942,K0.95Sb1.2Te23Pb21,Toxic,,27116,590,21809,300,-0.000112803,1.45179,0.000563119,0.108362,46067.2,21776.2,4.33798,0.0405784,,1,FALSE,4,228,-112.803,112.803,0.378159,1.87816,1.87816E-08,0.259564,1.19223,
23931,10.1063/1.35337,"y=0.17,x=1.03",Gd0.17Fe1.03Co2.97Sb12,Skutterudite,,5376,10242,4074,300,7.75E-05,1.93627,0.448574,0.0705893,76277.8,22012.5,4.34267,0.0333493,,1,TRUE,4,0,77.5,77.5,0.51268,2.01268,2.01268E-08,0.460568,1.47571,
23792,10.1088/0022-3727/45/18/185303,x=0.3,La3Te3.7Pb0.3,Toxic,,14549,3294,12350,300,-3.35E-05,1.91644,0.00021025,0.0283669,189054,22327.2,4.34884,0.0838454,,1,FALSE,3,32,-33.5,33.5,0.749167,2.24917,2.24917E-08,1.27564,0.640804,
23706,10.1016/j.jallcom.2012.09.065,MMS-Pb=21,AgSbTe20Pb21,Toxic,,14021,1714,11811,300,-0.000218145,1.4225,6.13E-05,0.0132358,13294.2,22510.4,4.35238,0.03690259,,1,FALSE,4,219,-218.145,218.145,0.152505,1.6525,1.6525E-08,0.065906,1.3566,
23616,10.1016/j.intermet.2014.05.006,Cu2Ge0.85In0.15Se3,In0.15Cu2Ge0.85Se3,Toxic,,13095,1275,10945,300,3.62E-05,2.58971,,0.082559,177326,22693.067,4.35589,0.0372271,,1,TRUE,4,0,36.2,36.2,0.731931,2.23193,2.23193E-08,1.18734,1.40237,
23531,10.1063/1.4863,x=0.05,Ti1Ni1.05Sn1,,,23110,10330,18948,300,-0.000256291,6.97687,0.000447576,0.02414604,8653.85,22877.534,4.35941,0.007347442,,1,TRUE,3,18,-256.291,256.291,0.109766,1.60977,1.60977E-08,0.041792,6.93508,
23408,10.1016/j.jallcom.2007.02.111,FeCo3Sb12,Fe(CoSb4)3,Skutterudite,,3591,1586,2419,300,5.37E-05,3.49441,,0.149481,120605,23113.5,4.36387,0.0190668,,1,TRUE,3,95,53.7,53.7,0.629436,2.12944,2.12944E-08,0.770459,2.72395,
23272,10.3390/ma6041326,Ti0.33Zr0.33Hf0.33NiSn,Hf0.33Zr0.33Ti0.33Ni1Sn1,Half-heusler,Half-Heusler,15806,13454,13380,300,-0.00022739,5.69885,,0.033452,12405.4,23406.232,4.36933,0.009245375,,1,TRUE,5,17,-227.39,227.39,0.140822,1.64082,1.64082E-08,0.06106534,5.63778,
23163,10.1063/1.49798,TiMn0.02NiSn,Ti0.94Mn0.02Ni1.05Sn1.01,Half-heusler,Half-Heusler,20851,21245,17361,300,-0.000168605,6.79167,0.000727003,0.0367725,25100.4,23667.3,4.37415,0.007910421,,1,TRUE,4,18,-168.605,168.605,0.233753,1.73375,1.73375E-08,0.130554,6.66111,
23028,10.1016/j.scriptamat.2012.02.010,Mg5%,Mg0.1Ti1.9Bi1.2S5.2,Toxic,,7569,5189,6136,300,-3.81E-05,2.8963,0.000262201,0.02965949,177984,23966.6,4.37961,0.032036,,1,FALSE,4,0,-38.1,38.1,0.72004,2.22004,2.22004E-08,1.1854,1.7109,
22894,10.1016/j.jallcom.2016.07.093,3_x=0.15,Co3Ag0.15Sn0.85C1,Perovskite,,22874,9838,18839,300,4.07E-05,3.89955,,0.0225854,168207,24238.1,4.3845,0.0196606,,1,TRUE,4,0,40.7,40.7,0.704081,2.20408,2.20408E-08,1.11222,2.78733,
22791,10.1007/s11664-010-1188-2,In0.25Co2.5Fe1.5Sb12,In0.25Fe1.5Co2.5Sb12,Skutterudite,,4056,2313,2798,300,8.04E-05,1.95936,0.00052278,0.07782982,81120.1,24450.5,4.38829,0.0371011,,1,TRUE,4,95,80.4,80.4,0.500022,2.00002,2.00002E-08,0.486726,1.47264,
22600,10.1007/s11664-014-3055-z,Bi85Sb15-xPbx_x=1,Bi85Sb14Pb,Toxic,,11958,2513,9907,300,4.71E-05,4.9327,0.000318764,0.0201732,148938,24884.6,4.39593,0.0141009,,1,FALSE,3,499,47.1,47.1,0.666287,2.16629,2.16629E-08,0.967928,3.96477,
22434,10.1007/s11664-012-1940-x,In4Se2.35,In4Se2.35,Toxic,,13397,2371,11207,300,-0.000161662,0.792617,,0.0189778,29020.8,25176.8,4.401,0.0869538,,1,TRUE,2,0,-161.662,161.662,0.248171,1.74817,1.74817E-08,0.1522,0.640417,
22331,10.1016/j.jmat.2018.02.002,x=0.03,Ga0.97Fe0.03Cu1Te2,Toxic,,10728,18754,8777,300,0.000310649,5.37288,0.000490547,0.033919,5097.96,25361.1,4.40417,0.0105612,,1,FALSE,4,25,310.649,310.649,0.0686998,1.5687,1.5687E-08,0.0239915,5.34889,
22227,10.1016/j.actamat.2012.07.057,5Pb(annealed),Ag19Sb19Te38Pb,Toxic,,18763,5834,15724,300,0.000325022,0.535976,,0.271492,4360.24,25632.2,4.40879,0.110634,,1,FALSE,4,517,325.022,325.022,0.0606938,1.56069,1.56069E-08,0.020415,0.515561,
22132,10.1016/j.intermet.2011.11.021,x=0.00,Zn13Sb10,,,16538,1256,14070,300,0.000120742,,0.000713006,0.257859,49333.6,25834.716,4.4122,,,1,TRUE,2,180,120.742,120.742,0.353144,1.85314,1.85314E-08,0.274267,-0.274267,
22041,10.1007/s11664-012-2469-8,Pb1Te1I0.0001,Te1Pb1I0.0001,Toxic,,466,2467,4862,300,-0.000212798,,,0.107998,16364.9,26025.7,4.4154,,,1,FALSE,3,0,-212.798,212.798,0.159699,1.6597,1.6597E-08,0.0814826,-0.0814826,
21929,10.1109/ICT.2006.331322,"x=0.052,y=0",Nd0.052Co4Sb12,Skutterudite,Skutterudite,5179,9026,3877,300,-0.000175459,4.21156,,0.0542857,25640.8,26238.3,4.41894,0.0143141,,1,TRUE,3,0,-175.459,175.459,0.220341,1.72034,1.72034E-08,0.132333,4.07923,
21776,10.1016/j.jallcom.2020.154755,Bi0.84Li0.08Ca0.08CuSeO,Li0.08Ca0.08Cu1Bi0.84Se1O1,Toxic,,28184,27518,22678,300,0.00016721,1.50153,0.000805202,0.157633,28626,26544.6,4.42398,0.0435754,,1,FALSE,6,0,167.21,167.21,0.236581,1.73658,1.73658E-08,0.149134,1.35239,
21631,10.1063/1.2164,18,Ba4Ga8Ge15,Clathrate,,2242,10094,1401,300,-4.92E-05,,,0.0356787,153298.791,26822.2,4.42849,,,1,TRUE,3,92,-49.2,49.2,0.654334,2.15433,2.15433E-08,0.99077,-0.99077,
21557,10.1007/s11664-010-1400-4,Ca0.3Co3MnSb12,Ca0.3Mn1Co3Sb12,Skutterudite,,5737,11094,4455,300,8.56E-05,0.627037,,0.0583326,82797,26954.8,4.43064,0.451011,,1,TRUE,4,94,85.6,85.6,0.478102,1.9781,1.9781E-08,0.491343,0.135694,
21416,10.1002/anie.201511737,In0.997Te,In0.997Te1,Toxic,,15215,6449,12907,300,0.000127325,0.679724,0.000789828,0.347976,47844.3,27234.9,4.43513,0.143872,,1,FALSE,2,8,127.325,127.325,0.333661,1.83366,1.83366E-08,0.263191,0.416533,
21279,10.1016/j.scriptamat.2012.04.005,e_Bi2Te2.4Se0.6,Bi2Te2.4Se0.6,Toxic,,5668,5190,4376,300,-0.000126729,0.753799,0.000943002,0.322419,48849.6,27599.725,4.4409,0.125468,,1,FALSE,3,0,-126.729,126.729,0.33538,1.83538,1.83538E-08,0.268973,0.484826,
21139,10.1016/j.jallcom.2012.08.041,Bi0.0044Pb0.9956Te0.88S0.12,Bi0.0044Te0.88Pb0.9956S0.12,Toxic,,22,1711,72,300,-4.41E-05,1.62531,0.000330881,0.0633374,178870,27925.7,4.446,0.151192,,1,FALSE,4,0,-44.1,44.1,0.683744,2.18374,2.18374E-08,1.17182,0.453496,
20996,10.1557/jmr.2013.353,NiSb 0% WQ,InSb,Antimonide,Antimonide,13210,2907,11043,300,-0.000317926,14.5208,7.3324,0.0216425,5219.79,28257.6,4.45114,0.004342333,,1,TRUE,2,8,-317.926,317.926,0.0645225,1.56452,1.56452E-08,0.0244994,14.4963,
20903,10.2320/matertrans.e-m2014821,"Ball-milled, 300 rpm, 1h",GaCuTe2,Toxic,,4230,4033,3006,300,0.000285034,5.62803,,0.0346357,7702.66,28452.3,4.45412,0.0113338,,1,FALSE,3,25,285.034,285.034,0.08567539,1.58568,1.58568E-08,0.0366418,5.59139,
20795,10.1021/acs.chemmater.5b02329,"BTST-25, CPA",AgSn25BiTe27,Toxic,,12355,642,10244,300,4.13E-05,2.72206,,0.0400881,196355.64,28663.5,4.45733,0.0463366,,1,FALSE,4,277,41.3,41.3,0.700448,2.20045,2.20045E-08,1.29621,1.42585,
20681,10.1021/ja400069s,Pb0.97Ca0.02Na0.01Se1,Na0.01Ca0.02Pb0.97Se1,Toxic,,234,3503,4876,300,2.94E-05,3.68968,0.000233338,0.0234464,278648,28924.3,4.46126,0.0374791,,1,FALSE,4,0,29.4,29.4,0.77612,2.27612,2.27612E-08,1.90271,1.78697,
20567,10.1016/j.pnsc.2016.11.003,x=0.5,Mg2Si0.5Bi0.5,Mg2Si,Mg2Si,14229,18893,12000,300,-1.37E-05,,,0.177446,606130,29222.4,4.46572,,,1,FALSE,3,8,-13.7,13.7,0.888604,2.3886,2.3886E-08,4.34341,-4.34341,
20431,10.1016/j.materresbull.2011.04.024,673K-150MPa,Zn4Sb3,Zintl,Antimonide,17036,3810,14560,300,0.000141996,0.811754,,0.324135,43322.7,29595.8,4.47123,0.11281,,1,TRUE,2,55,141.996,141.996,0.294021,1.79402,1.79402E-08,0.233166,0.578588,
20224,10.1021/ja400069s,Pb0.96Ca0.03Na0.01Se1,Na0.01Ca0.03Pb0.96Se1,Toxic,,310,3503,4876,300,3.08E-05,3.49696,0.000275134,0.0207748,277036,30084.3,4.47834,0.0433946,,1,FALSE,4,0,30.8,30.8,0.766809,2.26681,2.26681E-08,1.88396,1.61299,
20083,10.1007/s11664-014-3076-7,x=0.005,Ce0.005Ag1Sb0.995Te2.01,Toxic,,16795,2579,14303,300,0.00021836,0.643696,,0.425396,17900.1,30385.5,4.48267,0.121289,,1,FALSE,4,0,218.36,218.36,0.152222,1.65222,1.65222E-08,0.0887249,0.554971,
[...]
3782,10.1016/j.actamat.2011.01.064,0_inc,Ba0.3In0.2Co4Sb12,Skutterudite,Skutterudite,3144,42,2086,300,-0.000134838,3.29518,,0.300546,175110.28,109501,5.03942,0.103169,,1,TRUE,4,97,-134.838,134.838,0.312736,1.81274,1.81274E-08,0.952286,2.34289,
3655,10.1016/j.jallcom.2010.05.083,(Ca0.5Ba0.5)0.09Mm0.09Co4Sb12,Mm0.09Ba0.045Ca0.045Co4Sb12,Skutterudite,Skutterudite,3634,1660,2459,300,-0.000128036,4.52,0.003218347,0.212644,193316,111035,5.04546,0.0711011,,1,TRUE,5,0,-128.036,128.036,0.331622,1.83162,1.83162E-08,1.06225,3.45775,
3570,10.1007/s11664-011-1543-y,x=0.5,Ga66.6Re0.5Ru32.9,Expensive,,20008,11149,16744,300,6.87E-05,10.1076,0.002139002,0.07917447,446267,112012,5.04926,0.0341455,,0,TRUE,3,466,68.7,68.7,0.553086,2.05309,2.05309E-08,2.74867,7.3589,
3501,10.1109/ict.2007.4569501,x=0.00_R,Ce1B0.05Pd3,Expensive,,23342,9123,19075,300,5E-05,6.47776,,0.0306375,635620,113031,5.0532,0.112208,,0,TRUE,3,0,50,50,0.649837,2.14984,2.14984E-08,4.09944,2.37832,
3396,10.1039/c5ta01794g,Ti0.1Zr0.9NiSn0.975Sb0.025,Zr0.9Ti0.1Ni1Sn0.975Sb0.025,Half-heusler,,11538,2817,9535,300,-7.38E-05,12.2323,0.00223114,0.0475545,421013,114723,5.05965,0.026533,,1,TRUE,5,18,-73.8,73.8,0.529296,2.0293,2.0293E-08,2.56308,9.66919,
3346,10.1063/1.4907,Mm0.9Fe3.1Co0.9Sb12,Mm0.9Fe3.1Co0.9Sb12,Skutterudite,,4048,2175,2792,300,0.000187458,1.93317,0.002635935,0.213283,97747.4,115339,5.06198,0.176963,,1,TRUE,4,0,187.458,187.458,0.198688,1.69869,1.69869E-08,0.498127,1.43504,
3272,10.1007/s11664-014-3582-7,40g,Yb0.3Co4Sb12,Skutterudite,Skutterudite,4197,2642,2970,300,-0.000142639,3.74119,,0.26981,168830.176,116250,5.06539,0.0906657,,1,TRUE,3,0,-142.639,142.639,0.292396,1.7924,1.7924E-08,0.907832,2.83336,
3228,10.1016/j.jallcom.2015.03.213,1.5h,Yb0.3Co4Sb12,Skutterudite,Skutterudite,5295,9738,4009,300,-0.000112259,3.34963,,0.289147,248811,116782,5.06738,0.132484,,1,TRUE,3,0,-112.259,112.259,0.379937,1.87994,1.87994E-08,1.40325,1.94638,
3170,10.1021/cm803437x,y=0,La0.01Te1Pb0.99,Toxic,,27010,585,21709,300,-6.01E-05,4.70243,0.001961531,0.120312,543976,117672,5.07067,0.21933,,1,FALSE,3,9,-60.1,60.1,0.595649,2.09565,2.09565E-08,3.41995,1.28248,
3084,10.1142/s1793604714500519,Bi2Te2.73Se0.27,Bi2Te2.73Se0.27,Toxic,,27725,978,22262,300,-0.000153888,1.15611,,0.944385,150323,118727,5.07455,0.691128,,1,FALSE,3,0,-153.888,153.888,0.265373,1.76537,1.76537E-08,0.796126,0.35998,
2989,10.1021/ja8089334,"r=0.15,S=0.20",Ba0.15In0.2Co4Sb12,Skutterudite,Skutterudite,4394,3481,3166,300,-0.000139991,1.43205,0.003530934,0.365225,180363,120212,5.07995,0.555146,,1,TRUE,4,96,-139.991,139.991,0.299147,1.79915,1.79915E-08,0.973497,0.458551,
2934,10.3938/jkps.65.491,Yb0.3Co4Sb12,Yb0.3Co4Sb12,Skutterudite,Skutterudite,4431,3587,3212,300,-0.000129234,3.65296,0.003246656,0.288079,207556.123,121019,5.08285,0.106229,,1,TRUE,3,0,-129.234,129.234,0.328215,1.82822,1.82822E-08,1.13837,2.51459,
2844,10.1103/physrevb.80.115329,x=0.35,Yb0.35Co4Sb12,Skutterudite,Skutterudite,4722,4738,3464,300,-0.000129061,2.92206,,0.378726,210534,122491,5.0881,0.152394,,1,TRUE,3,0,-129.061,129.061,0.328705,1.8287,1.8287E-08,1.15501,1.76705,
2775,10.1016/j.actamat.2011.01.064,as prepared,Ba0.3In0.2Co3.95Ni0.05Sb12,Skutterudite,,3133,42,2080,300,-0.000114222,1.63621,,0.260843,257029,123763,5.09259,1.30729,0.116371,1,TRUE,5,97,-114.222,114.222,0.373562,1.87356,1.87356E-08,1.44468,0.191526,
2705,10.1109/ict.2005.1519920,7_5,Mg2Si0.4Sn0.6,Mg2Si,Mg2Si,9616,8921,7887,300,-0.000126797,3.44643,,0.338943,221244,125108,5.09728,0.123758,,1,TRUE,3,8,-126.797,126.797,0.335183,1.83518,1.83518E-08,1.21807,2.22836,
2616,10.1039/c5ee02600h,Ge0.15Sb0.015,Mg2Sn0.835Ge0.15Sb0.015,Mg-based,,9560,7980,7847,300,-0.000137526,2.78862,0.004908684,1.02722,195817,126598,5.10243,0.160882,,1,TRUE,4,8,-137.526,137.526,0.305572,1.80557,1.80557E-08,1.06069,1.72793,
2521,10.1016/j.actamat.2009.03.018,Ba0.39Ce0.02Co4Sb12.05,Ba0.39Ce0.02Co4Sb12.05,Skutterudite,Skutterudite,3132,34,2076,300,-7.92E-05,4.52348,,0.180103,434156,128492,5.10887,0.151848,,1,TRUE,4,0,-79.2,79.2,0.505221,2.00522,2.00522E-08,2.61174,1.91175,
2374,10.1063/1.30998,"x=0.20,y=0.15",Ce0.15In0.2Co4Sb12,Skutterudite,Skutterudite,4964,6750,3731,300,-0.000146922,3.35188,0.003954627,0.350629,180582,131041,5.11741,0.121014,,1,TRUE,4,0,-146.922,146.922,0.281797,1.7818,1.7818E-08,0.965283,2.38659,
2252,10.1134/s1063739713080052,Bi0.4Sb1.6Te3_SPS450,Bi0.4Sb1.6Te3,Toxic,,5841,5133,4559,300,0.000209313,1.1116,,1.00422,87449.4,133505,5.1255,0.430874,,1,FALSE,3,28,209.313,209.313,0.164569,1.66457,1.66457E-08,0.436697,0.674906,
2151,10.1016/j.scriptamat.2008.01.057,No1-1,Si9459.15Ge497.85P0.43,,,18562,5183,15601,300,0.00019973,11.9601,,0.14467,99374.5,135541,5.13207,0.0263091,,1,TRUE,3,39830,199.73,199.73,0.178742,1.67874,1.67874E-08,0.500472,11.4597,
1972,10.1002/slct.201901565,Cu0.005Bi0.3Sb1.695Te,Cu0.005Bi0.3Sb1.695Te1,Toxic,,27877,24822,22407,300,0.000171096,1.34272,,0.948845,142993,138905,5.14272,0.495235,,1,FALSE,4,16,171.096,171.096,0.228787,1.72879,1.72879E-08,0.741616,0.601109,
1799,10.1038/am.2016.77,Yb0.25Co4Sb12,Yb0.25Co4Sb12,Skutterudite,Skutterudite,22019,14693,18264,300,-0.00014023,3.16705,0.004186728,0.3909,213681,142839,5.15485,0.155798,,1,TRUE,3,0,-140.23,140.23,0.298532,1.79853,1.79853E-08,1.15294,2.01411,
1693,10.1039/c4ta05285d,0.5% P25,Ba0.21Ti0.09Co3.95Sb12O0.19,Skutterudite,,4221,2803,2993,300,-0.000108103,2.51737,0.003961897,0.279331,327685,145634,5.16326,0.481141,,1,TRUE,5,0,-108.103,108.103,0.393796,1.8938,1.8938E-08,1.86171,0.655667,
1538,10.1073/pnas.1424388112,Mg2Sn0.75Ge0.25,Mg2Sn0.75Ge0.25,Mg2Si,Mg2Si,25020,16684,20283,300,-0.000139203,3.30691,0.004492588,0.408023,227123.621,149914,5.17584,0.158327,,1,TRUE,3,8,-139.203,139.203,0.301186,1.80119,1.80119E-08,1.22728,2.07964,
1416,10.1016/j.intermet.2012.07.037,S1013,VFeSb,Half-heusler,,10872,1260,8947,300,-0.000218835,11.1952,0.004110312,0.109981,89983.7,153602,5.1864,0.0317868,,1,TRUE,3,18,-218.835,218.835,0.1516,1.6516,1.6516E-08,0.445851,10.7493,
1174,10.1002/slct.201901565,Cu0.001Bi0.3Sb1.699Te,Cu0.001Bi0.3Sb1.699Te1,Toxic,,27875,24822,22407,300,0.000190658,1.32711,,1.10998,132394,162248,5.21018,0.533411,,1,FALSE,4,16,190.658,190.658,0.193282,1.69328,1.69328E-08,0.672543,0.654566,
988,10.1038/s41467-018-08223-5,Ta0.92Ti0.08FeSb,Ta0.92Ti0.08Fe1Sb1,Half-heusler,Half-Heusler,22523,21247,18606,300,0.000134821,6.61429,0.005067406,0.222405,275188,172045,5.23564,0.0743982,,1,TRUE,4,17,134.821,134.821,0.312782,1.81278,1.81278E-08,1.49657,5.11772,
877,10.1109/ict.2007.4569501,x=0.06_R,Ce1B0.05Pd2.82Rh0.18,Expensive,,23344,9123,19075,300,6.73E-05,6.50669,,0.0771882,735096,180174,5.25569,0.214131,,0,TRUE,4,0,67.3,67.3,0.559802,2.0598,2.0598E-08,4.54246,1.96423,
756,10.1063/1.482,x=0.005,As2Pt0.995Rh0.005,Toxic,Alloy,17825,388,15143,300,0.000161487,19.0561,0.004721294,0.0691658,220357,190766,5.2805,0.0236954,,0,FALSE,3,19,161.487,161.487,0.248546,1.74855,1.74855E-08,1.15592,17.9001,
660,10.1016/j.jssc.2019.121050,Ba0.7Eu0.3Ti0.997Nb0.003O3,Ba0.7Eu0.3Ti0.997Nb0.003O3,Oxide,Oxide,26681,21365,21453,300,0.000465013,1.01421,7.71E-06,0.001259977,6903.63,206083,5.31404,0.466892,,1,TRUE,5,0,465.013,465.013,0.0181564,1.51816,1.51816E-08,0.0314424,0.982763,
593,10.1063/1.48614,x=0.05,Ta0.05Al0.95V1Fe2,Heusler,Heusler,10895,2132,8983,300,-0.00013939,10.187,0.006122623,0.174072,329766,218163,5.33878,0.0575242,,1,TRUE,4,24,-139.39,139.39,0.300701,1.8007,1.8007E-08,1.78143,8.40555,
480,10.1007/s11664-011-1788-5,Sc=0.05,Ce0.95Sc0.05Pd3,Expensive,,18682,2360,15674,300,8.83E-05,9.58658,,0.189873,768268,260272,5.41543,0.115065,,0,TRUE,3,0,88.3,88.3,0.467102,1.9671,1.9671E-08,4.53379,5.05279,
377,10.1073/pnas.1617663113,FeNb0.94Ti0.06Sb,Ti0.06Nb0.93Fe1.01Sb0.99,Half-heusler,Half-Heusler,20643,21244,17211,300,0.000152987,12.9715,0.009582734,0.218044,405000,316401,5.50024,0.0647562,,1,TRUE,4,17,152.987,152.987,0.267442,1.76744,1.76744E-08,2.14744,10.8241,
301,10.1088/0022-3727/43/8/085406,y=0,Mg2Si0.6Sn0.4,Mg2Si,Mg2Si,8866,3283,7317,300,-0.000595935,1.81227,0.000578641,0.0934454,2711.09,369774,5.56794,0.457601,,1,TRUE,3,8,-595.935,595.935,0.005873112,1.50587,1.50587E-08,0.01224765,1.80002,
230,10.1016/j.actamat.2011.12.028,20hr,In0.1Co4Sb12,Skutterudite,Skutterudite,3220,48,2144,300,-0.000266459,3.81565,0.000131868,0.0121412,187570.798,558213,5.7468,0.422279,,1,TRUE,3,96,-266.459,266.459,0.100554,1.60055,1.60055E-08,0.900652,2.915,
176,10.1016/j.seta.2019.100604,Mg0.99Ca0.01Ag0.97Sb0.99,Ca0.01Mg0.99Ag0.97Sb0.99,Half-heusler,,26303,21306,21162,300,0.000199261,0.89803,,0.698434,555880,754007,5.87738,-0.930501,,1,TRUE,4,16,199.261,199.261,0.179466,1.67947,1.67947E-08,2.80074,-1.90271,
111,10.1007/s11664-010-1310-5,Mg2Si0.4Sn0.6,Mg2Si0.4Sn0.6,Mg2Si,Mg2Si,8500,2295,6974,300,-0.000379402,2.01351,,0.094186,136207,1505411.304,6.17766,2.39587,0.379463,1,TRUE,3,8,-379.402,379.402,0.03797957,1.53798,1.53798E-08,0.628453,1.38506,
43358,10.1007/s11664-012-2469-8,Pb1.004Te1I0.0083,Te1Pb1.004I0.0083,Toxic,,395,2467,4862,300,-7.33E-05,4.60637,,0.018663,,,,,,1,FALSE,3,0,-73.3,73.3,0.531583,2.03158,2.03158E-08,0,4.60637,
43897,10.1063/1.29519,x=1.0,Ba7Yb(Ga8Ge15)2,,,801,1968,428,300,-4.15E-05,1.7301,,0.02521187,,,,,,1,TRUE,4,0,-41.5,41.5,0.699242,2.19924,2.19924E-08,0,1.7301,
44429,10.1088/0022-3727/45/45/455308,In,K4In4Sn19,,,1090,3298,594,300,-0.000238919,,0.000612366,0.130659,,,,,,1,TRUE,3,92,-238.919,238.919,0.127499,1.6275,1.6275E-08,0,0,
45926,10.1016/j.jallcom.2016.11.253,2.1,Te0.999Pb1I0.01,Toxic,,2780,18590,1837,300,-9.38E-05,2.64064,,0.175603,3.4E-12,0,,0,,1,FALSE,3,0,-93.8,93.8,0.445472,1.94547,1.94547E-08,1.98438E-17,2.64064,
46474,10.1016/j.actamat.2012.02.034,x=0.175 MS-SPS,Co1Ge0.075Sb2.75Te0.175,Toxic,,3226,49,2155,300,-0.000158113,2.91722,,0.226916,,,,,,1,FALSE,4,24,-158.113,158.113,0.255881,1.75588,1.75588E-08,0,2.91722,
46792,10.7567/jjap.54.111801,In0.25Co4Sb12,In0.25Co4Sb12,Skutterudite,Skutterudite,3498,1391,2358,300,1.12E-06,2.52922,0.003815168,0.448115,,,,,,1,TRUE,3,96,1.12,1.12,0.990391,2.49039,2.49039E-08,0,2.52922,
47285,10.1063/1.2375,"m=0.24,n=0.06",Ca0.24Ce0.06Fe1.46Co2.54Sb12,,,3919,1934,2673,300,9.26E-05,,,0.0551156,,,,,,1,TRUE,5,0,92.6,92.6,0.450104,1.9501,1.9501E-08,0,0,
47552,10.1016/s1002-0721(08)60018-6,Sm0.32Fe1.47Co2.53Sb12,Sm0.32Fe1.47Co2.53Sb12,,,4338,3338,3104,300,0.000151623,2.6423,,0.162517,,,,,,1,TRUE,4,0,151.623,151.623,0.270605,1.77061,1.77061E-08,0,2.6423,
47872,10.1016/j.scriptamat.2006.12.012,x=0.075,Ba0.32Co3.925Sb12Pd0.075,,,4766,5180,3497,300,-8.87E-05,4.43989,0.002447596,0.162502,,,,,,0,TRUE,4,96,-88.7,88.7,0.465494,1.96549,1.96549E-08,0,4.43989,
48317,10.1109/ict.2007.4569453,Yb0.4Co3.75Fe0.25Sb12,Yb0.4Fe0.25Co3.75Sb12,,,5184,9103,3881,300,-0.000148105,2.76842,,0.213058,,,,,,1,TRUE,4,0,-148.105,148.105,0.278938,1.77894,1.77894E-08,0,2.76842,
48737,10.1002/adfm.201000970,x=0,Ca5(AlSb3)2,,,5873,133,4609,300,0.000466106,1.51753,,0.0112325,0.002280219,0.0689375,,1.01E-07,,1,TRUE,3,46,466.106,466.106,0.0179861,1.51799,1.51799E-08,1.0384E-08,1.51753,
49298,10.1039/c4ee02428a,Cu5.02Fe0.98S4,Fe0.98Cu5.02S4,,,6753,871,5373,300,0.000218705,0.360134,,0.002220587,3.23E-05,6.25E-05,,3.87E-10,,1,TRUE,3,0,218.705,218.705,0.15177,1.65177,1.65177E-08,1.60057E-10,0.360134,
50439,10.1016/j.jcrysgro.2006.10.270,Non BN coated,Mg2Si,Mg2Si,Mg2Si,8496,2254,6969,300,-0.000177926,6.91592,0.002260677,0.1090922,,,,,,1,TRUE,2,8,-177.926,177.926,0.215705,1.7157,1.7157E-08,0,6.91592,
50563,10.1557/jmr.2011.385,x=0.7,Mg2Si0.3Sn0.7,Mg2Si,Mg2Si,8788,2898,7246,300,-0.00025045,2.26668,,0.0394147,,,,,,1,TRUE,3,8,-250.45,250.45,0.115435,1.61543,1.61543E-08,0,2.26668,
50796,10.1103/physrevlett.108.166601,x=0.5,Mg2Si0.5Sn0.5,Mg2Si,Mg2Si,9368,4907,7694,300,-0.000120712,,0.0020992,0.231355,,,,,,1,TRUE,3,8,-120.712,120.712,0.353235,1.85324,1.85324E-08,0,0,
51276,10.1007/s11664-015-4214-6,Metal-grade Si,Mg2Si0.992Sb0.008,Mg2Si,Mg2Si,9923,10932,8105,300,-0.000103892,,0.001644234,0.07002442,,,,,,1,TRUE,3,8,-103.892,103.892,0.408354,1.90835,1.90835E-08,0,0,
51420,10.1016/j.actamat.2008.12.039,??Ã¶?ÂºÃ†??Ã³z=0.04,Al0.0668Re0.73Si1.6032Ru0.24,Expensive,,10221,32,8289,300,4.14E-05,1.72,,0.0283,0.100503,0.01475,,1.91E-08,,0,TRUE,4,13,41.4,41.4,0.699845,2.19984,2.19984E-08,6.6327E-07,1.72,
52763,10.1007/s11664-012-2077-7,y=0,ZrNiSn,,,11475,2403,9481,300,-0.000216965,7.18505,0.000752795,0.0340789,,,,,,1,TRUE,3,18,-216.965,216.965,0.154064,1.65406,1.65406E-08,0,7.18505,
53055,10.1016/j.jssc.2012.09.043,850-7d,Ti0.4V0.8Fe1Sb1,,,11868,3407,9815,300,0.000181561,2.7184,1.6218,0.138907,0.03700569,0.0406875,,3.33E-08,,1,TRUE,4,18,181.561,181.561,0.20905,1.70905,1.70905E-08,1.89734E-07,2.7184,
53776,10.1016/j.cap.2011.04.044,m:n=0:1,Cu,,Antimonide,12865,747,10683,300,6.73E-05,3.08333,,0.0373711,,,,,,1,TRUE,1,10,67.3,67.3,0.559802,2.0598,2.0598E-08,0,3.08333,
53972,10.1016/j.jallcom.2012.11.139,x=0.2,In1Sn0.2Se1,Toxic,,13209,1720,11038,300,-0.000105762,1.092,3.22E-05,0.0105358,,,,,,1,TRUE,3,0,-105.762,105.762,0.401824,1.90182,1.90182E-08,0,1.092,
54208,10.1063/1.36529,x=0.05,In4Se2.7Cl0.05,Toxic,,13373,2035,11179,300,-0.000159589,1.2405,9.8E-05,0.0115696,,,,,,1,TRUE,3,0,-159.589,159.589,0.252646,1.75265,1.75265E-08,0,1.2405,
54667,10.1016/j.jpcs.2015.01.018,Cu1.98Se_bulk,Cu1.98Se1,Toxic,,13778,3180,11502,300,4.71E-11,2.39202,0.465095,0.0628543,225890,0.0376158,,1.14E-07,,1,TRUE,2,0,4.71E-05,4.71E-05,1,2.5,2.5E-08,1.69417,0.697842,
54799,10.1021/ic401516m,(GeTe)11(LiSbTe2)2,Li2Ge11Sb2Te15,Toxic,,13897,1182,11630,300,6.47E-05,1.63351,,0.0909277,0.697739,0.16375,,2.23E-07,,1,FALSE,4,146,64.7,64.7,0.572491,2.07249,2.07249E-08,4.33817E-06,1.6335,
54975,10.1063/1.21814,Tl4SnTe3,Tl4SnTe3,Toxic,,14167,1923,11942,300,0.000122672,0.514146,0.000454312,0.272997,,,,,,1,FALSE,3,34,122.672,122.672,0.347317,1.84732,1.84732E-08,0,0.514146,
55217,10.1016/j.jssc.2006.08.016,x=0,Bi0.5Sb1.5Te3,Toxic,,14559,3372,12367,300,0.000273135,0.76047,,0.587485,,,,,,1,FALSE,3,28,273.135,273.135,0.0949303,1.59493,1.59493E-08,0,0.76047,
55709,10.1063/1.36091,x=0.2,In1.8Cu0.2Se3,Toxic,,14843,10265,12576,300,-0.000155769,0.622292,5.99E-05,0.0307692,,,,,,1,TRUE,3,0,-155.769,155.769,0.261104,1.7611,1.7611E-08,0,0.622292,
56294,10.1063/1.48131,S-144,GaCuTe2,Toxic,,15251,6866,12945,300,0.000151993,2.57545,,0.01274621,,,,,,1,FALSE,3,25,151.993,151.993,0.269743,1.76974,1.76974E-08,0,2.57545,
57495,10.2320/jinstmet.jaw201504,Fe4Al9.0,Al9Fe4,,,16253,4327,13758,300,-2.91E-06,3.84158,,0.00019028,,,,,,1,TRUE,2,59,-2.91,2.91,0.975226,2.47523,2.47523E-08,0,3.84158,
57921,10.1016/j.jallcom.2004.03.134,753K,Zn4Sb3,Antimonide,Antimonide,16600,1495,14108,300,0.000109722,0.697697,7.83381,0.327256,,,,,,1,TRUE,2,55,109.722,109.722,0.388338,1.88834,1.88834E-08,0,0.697697,
58182,10.1109/ict.2007.4569423,Quench (SPS),AgSb(Te10Pb9)2,Toxic,,16959,9084,14478,300,-0.000412805,1.12986,,0.004076458,,,,,,1,FALSE,4,207,-412.805,412.805,0.02847685,1.52848,1.52848E-08,0,1.12986,
63074,10.1103/physrevb.79.184202,x=1.00,AgSbTeSe,Toxic,,20972,4730,17461,300,0.000327601,,,0.0653512,,,,,,1,FALSE,4,0,327.601,327.601,0.0593593,1.55936,1.55936E-08,0,0,
64848,10.1016/j.jallcom.2016.07.093,Sn0.9Ge0.1CCo3,Co3Sn0.9Ge0.1C1,,,22889,9838,18851,300,4.39E-05,,,0.0254891,,,,,,1,TRUE,4,0,43.9,43.9,0.684923,2.18492,2.18492E-08,0,0,
65348,10.1016/s0022-3697(98)00324-2,x=0,CePd3,,,23290,3153,19024,300,8.63E-05,9.88248,,0.197947,0.0118067,0.003875,,8.74E-10,,0,TRUE,2,0,86.3,86.3,0.475226,1.97523,1.97523E-08,6.99627E-08,9.88248,
66981,10.1038/srep23143,623 K_50 MPa,In0.15Sb1.85Te3,Toxic,Antimonide,24652,21357,19985,300,0.000119072,,,0.255455,,,,,,1,FALSE,3,27,119.072,119.072,0.358265,1.85826,1.85826E-08,0,0,
67363,10.1016/j.cap.2009.10.009,x=0.12,Sr0.12La0.88Fe1O3,,,25082,745,20347,300,0.000351153,3.11228,3.06E-06,0.000574197,,,,,,1,TRUE,4,0,351.153,351.153,0.04845203,1.54845,1.54845E-08,0,3.11228,
68309,10.1007/s10853-007-2365-4,x=0.2,Sr0.2La0.8Co1O3,,,25627,2944,20701,300,4.3E-05,2.76925,,0.003545417,,,,,,1,TRUE,4,0,43,43,0.690258,2.19026,2.19026E-08,0,2.76925,
70157,10.1021/cm100592x,1*10^20,Cs2Zn9Sb14,Antimonide,,27205,596,21871,300,2.86E-05,,,0.0258023,,,,,,1,TRUE,3,0,28.6,28.6,0.781491,2.28149,2.28149E-08,0,0,
70653,10.1007/s11664-016-4665-4,Cr0.10_heating,V0.9Cr0.1Bi2O5.5,Toxic,,27662,10964,22218,300,6.49E-05,0.262517,,9.69E-06,1.18E-05,0,,0,,1,FALSE,4,0,64.9,64.9,0.571505,2.0715,2.0715E-08,7.33313E-11,0.262517,
71325,10.1007/s11664-014-3058-9,PT-CT,Ca0.1Pr0.6Ti1O3,,,28385,10822,22806,300,-0.00039703,1.86329,2.06E-09,5.8E-07,0.0139783,0.1895625,,2.27E-07,,1,TRUE,4,0,-397.03,397.03,0.03262513,1.53263,1.53263E-08,6.42705E-08,1.86329,
,[66],Nb0.76V0.01Ti0.2Fe1Sb1,Nb0.76V0.01Ti0.2Fe1Sb1,Half-heusler,Half-heusler,,,,300,,4.85,,,,,,,,,,,,,,,,,,4.85,
,[66],Nb0.72V0.02Ti0.2Fe1Sb1,Nb0.72V0.02Ti0.2Fe1Sb1,Half-heusler,Half-heusler,,,,300,,4.52,,,,,,,,,,,,,,,,,,4.52,
,[66],Nb0.6V0.05Ti0.2Fe1Sb1,Nb0.6V0.05Ti0.2Fe1Sb1,Half-heusler,Half-heusler,,,,300,,3.69,,,,,,,,,,,,,,,,,,3.69,
,[66],Nb0.48V0.08Ti0.2Fe1Sb1,Nb0.48V0.08Ti0.2Fe1Sb1,Half-heusler,Half-heusler,,,,300,,3.07,,,,,,,,,,,,,,,,,,3.07,
,[66],Nb0.36V0.11Ti0.2Fe1Sb1,Nb0.36V0.11Ti0.2Fe1Sb1,Half-heusler,Half-heusler,,,,300,,3.28,,,,,,,,,,,,,,,,,,3.28,
,[66],Nb0.24V0.14Ti0.2Fe1Sb1,Nb0.24V0.14Ti0.2Fe1Sb1,Half-heusler,Half-heusler,,,,300,,3.18,,,,,,,,,,,,,,,,,,3.18,
,[66],Nb0.12V0.17Ti0.2Fe1Sb1,Nb0.12V0.17Ti0.2Fe1Sb1,Half-heusler,Half-heusler,,,,300,,3.44,,,,,,,,,,,,,,,,,,3.44,
,[66],V0.8Ti0.2Fe1Sb1,V0.8Ti0.2Fe1Sb1,Half-heusler,Half-heusler,,,,300,,3.17,,,,,,,,,,,,,,,,,,3.17,
,[66],Nb0.8Ti0.2Fe1Sb1,Nb0.8Ti0.2Fe1Sb1,Half-heusler,Half-heusler,,,,300,,4.45,,,,,,,,,,,,,,,,,,4.45,
,[67],Nb0.768Ta0.032Ti0.2Fe1Sb1,Nb0.768Ta0.032Ti0.2Fe1Sb1,Half-heusler,Half-heusler,,,,300,,3.99,,,,,,,,,,,,,,,,,,3.99,
,[67],Nb0.704Ta0.096Ti0.2Fe1Sb1,Nb0.704Ta0.096Ti0.2Fe1Sb1,Half-heusler,Half-heusler,,,,300,,3.47,,,,,,,,,,,,,,,,,,3.47,
,[67],Nb0.64Ta0.16Ti0.2Fe1Sb1,Nb0.64Ta0.16Ti0.2Fe1Sb1,Half-heusler,Half-heusler,,,,300,,2.95,,,,,,,,,,,,,,,,,,2.95,
,[67],Nb0.608Ta0.192Ti0.2Fe1Sb1,Nb0.608Ta0.192Ti0.2Fe1Sb1,Half-heusler,Half-heusler,,,,300,,2.12,,,,,,,,,,,,,,,,,,2.12,
,[67],Nb0.544Ta0.256Ti0.2Fe1Sb1,Nb0.544Ta0.256Ti0.2Fe1Sb1,Half-heusler,Half-heusler,,,,300,,2.39,,,,,,,,,,,,,,,,,,2.39,
,[67],Nb0.512Ta0.288Ti0.2Fe1Sb1,Nb0.512Ta0.288Ti0.2Fe1Sb1,Half-heusler,Half-heusler,,,,300,,2.13,,,,,,,,,,,,,,,,,,2.13,
,[67],Nb0.48Ta0.32Ti0.2Fe1Sb1,Nb0.48Ta0.32Ti0.2Fe1Sb1,Half-heusler,Half-heusler,,,,300,,1.76,,,,,,,,,,,,,,,,,,1.76,
,[68],Ta0.79V0.05Ti0.16FeSb,Ta0.79V0.05Ti0.16FeSb,Half-heusler,Half-heusler,,,,300,,2.52,,,,,,,,,,,,,,,,,,2.52,
,[68],Ta0.74V0.1Ti0.16FeSb,Ta0.74V0.1Ti0.16FeSb,Half-heusler,Half-heusler,,,,300,,2.33,,,,,,,,,,,,,,,,,,2.33,
,[68],Ta0.69V0.15Ti0.16FeSb,Ta0.69V0.15Ti0.16FeSb,Half-heusler,Half-heusler,,,,300,,2.46,,,,,,,,,,,,,,,,,,2.46,
,unpublished,Ta.65V.15Ti.2FeSb,Ta.65V.15Ti.2FeSb,Half-heusler,Half-heusler,,,,300,,1.22,,,,,,,,,,,,,,,,,,1.22,
,unpublished,Ta.16V.08Nb.56Ti.2FeSb,Ta.16V.08Nb.56Ti.2FeSb,Half-heusler,Half-heusler,,,,300,,0.95,,,,,,,,,,,,,,,,,,0.95,
,unpublished,Ta.296V.504Ti.2FeSb,Ta.296V.504Ti.2FeSb,Half-heusler,Half-heusler,,,,300,,3.26,,,,,,,,,,,,,,,,,,3.26,
,unpublished,Ta.267V.267Nb.267Ti.2FeSb,Ta.267V.267Nb.267Ti.2FeSb,Half-heusler,Half-heusler,,,,300,,2.03,,,,,,,,,,,,,,,,,,2.03,
,unpublished,Ta.16Nb.64Ti.2FeSb,Ta.16Nb.64Ti.2FeSb,Half-heusler,Half-heusler,,,,300,,3.65,,,,,,,,,,,,,,,,,,3.65,
,unpublished,Ta.4Nb.4Ti.2FeSb,Ta.4Nb.4Ti.2FeSb,Half-heusler,Half-heusler,,,,300,,3.64,,,,,,,,,,,,,,,,,,3.64,
,unpublished,Ta.64Nb.16Ti.2FeSb,Ta.64Nb.16Ti.2FeSb,Half-heusler,Half-heusler,,,,300,,3.33,,,,,,,,,,,,,,,,,,3.33,
,unpublished,Ta.16V.48Nb.16Ti.2FeSb,Ta.16V.48Nb.16Ti.2FeSb,Half-heusler,Half-heusler,,,,300,,2.54,,,,,,,,,,,,,,,,,,2.54,
,unpublished,Ta0.8Ti0.2Fe1Sb1,Ta0.8Ti0.2Fe1Sb1,Half-heusler,Half-heusler,,,,300,,5.5,,,,,,,,,,,,,,,,,,5.5,
,unpublished,Nb0.8Ti0.2Fe1Sb1,Nb0.8Ti0.2Fe1Sb1,Half-heusler,Half-heusler,,,,300,,7.42,,,,,,,,,,,,,,,,,,7.42,